Folder: powder/lib/math_models/mathematica/pidfiles

Note: README.md
powder
======

Physics Online Validation and Verification Data Explorer

File: PID057_xrd.csv
0.45,468
0.458,419
0.466,398
0.474,366
0.482,413
0.49,351
0.498,384
0.506,355
0.514,369
0.522,351
0.53,332
0.538,346
0.546,306
0.554,351
0.562,312
0.57,342
0.578,346
0.586,387
0.594,453
0.602,2065
0.61,2747
0.618,883
0.626,756
0.634,407
0.642,337
0.65,301
0.658,359
0.666,411
0.674,284
0.682,284
0.69,290
0.698,242
0.706,280
0.714,277
0.722,248
0.73,280
0.738,326
0.746,283
0.754,288
0.762,245
0.77,280
0.778,275
0.786,258
0.794,263
0.802,290
0.81,257
0.818,260
0.826,282
0.834,255
0.842,293
0.85,320
0.858,391
0.866,1181
0.874,4598
0.882,1443
0.89,468
0.898,315
0.906,278
0.914,244
0.922,226
0.93,264
0.938,248
0.946,254
0.954,284
0.962,234
0.97,232
0.978,234
0.986,252
0.994,246
1.002,260
1.01,277
1.018,260
1.026,282
1.034,285
1.042,357
1.05,603
1.058,375
1.066,286
1.074,279
1.082,274
1.09,256
1.098,278
1.106,310
1.114,288
1.122,307
1.13,261
1.138,335
1.146,282
1.154,313
1.162,312
1.17,316
1.178,332
1.186,365
1.194,410
1.202,612
1.21,1306
1.218,2928
1.226,4535
1.234,1736
1.242,1359
1.25,2787
1.258,4680
1.266,1127
1.274,471
1.282,445
1.29,446
1.298,377
1.306,475
1.314,336
1.322,357
1.33,368
1.338,333
1.346,390
1.354,556
1.362,1587
1.37,1920
1.378,913
1.386,766
1.394,1647
1.402,989
1.41,446
1.418,381
1.426,346
1.434,335
1.442,339
1.45,377
1.458,326
1.466,339
1.474,381
1.482,338
1.49,334
1.498,296
1.506,364
1.514,364
1.522,354
1.53,342
1.538,336
1.546,337
1.554,353
1.562,370
1.57,363
1.578,385
1.586,438
1.594,778
1.602,1588
1.61,1496
1.618,735
1.626,577
1.634,805
1.642,754
1.65,528
1.658,432
1.666,430
1.674,340
1.682,374
1.69,335
1.698,417
1.706,482
1.714,863
1.722,1587
1.73,1178
1.738,619
1.746,455
1.754,407
1.762,405
1.77,377
1.778,365
1.786,316
1.794,307
1.802,307
1.81,258
1.818,261
1.826,275
1.834,281
1.842,280
1.85,263
1.858,268
1.866,246
1.874,257
1.882,283
1.89,310
1.898,312
1.906,395
1.914,667
1.922,1249
1.93,1204
1.938,614
1.946,376
1.954,340
1.962,383
1.97,503
1.978,1081
1.986,702
1.994,314
2.002,263
2.01,239
2.018,232
2.026,253
2.034,348
2.042,368
2.05,259
2.058,242
2.066,222
2.074,226
2.082,221
2.09,264
2.098,326
2.106,306
2.114,245
2.122,230
2.13,216
2.138,190
2.146,210
2.154,290
2.162,315
2.17,225
2.178,262
2.186,353
2.194,335
2.202,268
2.21,237
2.218,231
2.226,218
2.234,192
2.242,208
2.25,193
2.258,225
2.266,285
2.274,290
2.282,271
2.29,212
2.298,176
2.306,176
2.314,192
2.322,168
2.33,147
2.338,168
2.346,186
2.354,163
2.362,161
2.37,160
2.378,149
2.386,117
2.394,130
2.402,144
2.41,137
2.418,174
2.426,149
2.434,160
2.442,230
2.45,259
2.458,199
2.466,192
2.474,208
2.482,180
2.49,187
2.498,180
2.506,217
2.514,232
2.522,175
2.53,162

File: PID058_xrd.csv
0.45,415
0.458,377
0.466,363
0.474,353
0.482,404
0.49,834
0.498,1247
0.506,355
0.514,337
0.522,324
0.53,276
0.538,284
0.546,267
0.554,274
0.562,261
0.57,274
0.578,272
0.586,240
0.594,254
0.602,293
0.61,267
0.618,303
0.626,360
0.634,324
0.642,327
0.65,376
0.658,2109
0.666,3493
0.674,353
0.682,277
0.69,233
0.698,204
0.706,264
0.714,227
0.722,252
0.73,522
0.738,1568
0.746,277
0.754,274
0.762,275
0.77,237
0.778,211
0.786,222
0.794,213
0.802,262
0.81,300
0.818,228
0.826,199
0.834,207
0.842,204
0.85,236
0.858,296
0.866,348
0.874,397
0.882,342
0.89,293
0.898,292
0.906,257
0.914,380
0.922,965
0.93,419
0.938,438
0.946,236
0.954,230
0.962,249
0.97,263
0.978,369
0.986,590
0.994,515
1.002,290
1.01,292
1.018,225
1.026,247
1.034,274
1.042,293
1.05,260
1.058,404
1.066,321
1.074,407
1.082,504
1.09,401
1.098,442
1.106,500
1.114,603
1.122,1037
1.13,1035
1.138,532
1.146,359
1.154,347
1.162,351
1.17,567
1.178,575
1.186,353
1.194,332
1.202,313
1.21,296
1.218,331
1.226,404
1.234,541
1.242,772
1.25,2962
1.258,1978
1.266,648
1.274,628
1.282,1203
1.29,1660
1.298,1405
1.306,3641
1.314,1210
1.322,533
1.33,469
1.338,463
1.346,340
1.354,362
1.362,387
1.37,719
1.378,1243
1.386,508
1.394,474
1.402,869
1.41,979
1.418,607
1.426,465
1.434,522
1.442,593
1.45,530
1.458,452
1.466,633
1.474,1120
1.482,485
1.49,420
1.498,449
1.506,556
1.514,874
1.522,624
1.53,571
1.538,443
1.546,377
1.554,430
1.562,515
1.57,658
1.578,360
1.586,317
1.594,357
1.602,335
1.61,400
1.618,390
1.626,380
1.634,394
1.642,378
1.65,414
1.658,488
1.666,410
1.674,418
1.682,429
1.69,676
1.698,1082
1.706,820
1.714,575
1.722,636
1.73,622
1.738,427
1.746,404
1.754,393
1.762,496
1.77,798
1.778,1046
1.786,731
1.794,594
1.802,507
1.81,394
1.818,323
1.826,310
1.834,314
1.842,521
1.85,857
1.858,532
1.866,340
1.874,294
1.882,248
1.89,264
1.898,217
1.906,233
1.914,206
1.922,243
1.93,321
1.938,274
1.946,295
1.954,320
1.962,347
1.97,330
1.978,403
1.986,557
1.994,533
2.002,555
2.01,421
2.018,350
2.026,435
2.034,307
2.042,245
2.05,222
2.058,228
2.066,279
2.074,329
2.082,247
2.09,288
2.098,273
2.106,188
2.114,209
2.122,190
2.13,237
2.138,216
2.146,242
2.154,235
2.162,211
2.17,216
2.178,204
2.186,234
2.194,215
2.202,203
2.21,244
2.218,235
2.226,226
2.234,236
2.242,233
2.25,277
2.258,340
2.266,236
2.274,220
2.282,177
2.29,191
2.298,190
2.306,181
2.314,196
2.322,170
2.33,188
2.338,197
2.346,188
2.354,201
2.362,173
2.37,194
2.378,194
2.386,189
2.394,174
2.402,181
2.41,164
2.418,179
2.426,179
2.434,166
2.442,154
2.45,168
2.458,169
2.466,215
2.474,238
2.482,199
2.49,168
2.498,163
2.506,152
2.514,171
2.522,167
2.53,172

File: PID071_July2014_xrd.csv
0.45,689
0.458,637
0.466,635
0.474,583
0.482,565
0.49,612
0.498,534
0.506,544
0.514,545
0.522,559
0.53,555
0.538,529
0.546,497
0.554,520
0.562,462
0.57,491
0.578,498
0.586,502
0.594,799
0.602,762
0.61,480
0.618,453
0.626,442
0.634,467
0.642,448
0.65,412
0.658,418
0.666,415
0.674,424
0.682,413
0.69,438
0.698,404
0.706,429
0.714,395
0.722,365
0.73,389
0.738,373
0.746,369
0.754,378
0.762,357
0.77,371
0.778,366
0.786,384
0.794,373
0.802,417
0.81,359
0.818,347
0.826,362
0.834,361
0.842,354
0.85,350
0.858,416
0.866,2614
0.874,851
0.882,375
0.89,409
0.898,363
0.906,725
0.914,389
0.922,345
0.93,347
0.938,377
0.946,333
0.954,324
0.962,377
0.97,321
0.978,355
0.986,351
0.994,368
1.002,347
1.01,358
1.018,372
1.026,362
1.034,1516
1.042,561
1.05,370
1.058,345
1.066,374
1.074,349
1.082,384
1.09,422
1.098,373
1.106,366
1.114,388
1.122,388
1.13,397
1.138,395
1.146,355
1.154,363
1.162,349
1.17,347
1.178,410
1.186,410
1.194,1567
1.202,790
1.21,3803
1.218,1580
1.226,502
1.234,439
1.242,503
1.25,493
1.258,2244
1.266,717
1.274,403
1.282,410
1.29,419
1.298,436
1.306,449
1.314,458
1.322,448
1.33,422
1.338,447
1.346,746
1.354,1827
1.362,495
1.37,474
1.378,452
1.386,572
1.394,3357
1.402,659
1.41,478
1.418,393
1.426,493
1.434,446
1.442,451
1.45,438
1.458,393
1.466,444
1.474,471
1.482,429
1.49,411
1.498,455
1.506,447
1.514,435
1.522,425
1.53,437
1.538,462
1.546,451
1.554,420
1.562,451
1.57,475
1.578,1014
1.586,1279
1.594,435
1.602,431
1.61,417
1.618,402
1.626,505
1.634,533
1.642,384
1.65,408
1.658,420
1.666,418
1.674,399
1.682,414
1.69,393
1.698,942
1.706,1456
1.714,441
1.722,412
1.73,370
1.738,361
1.746,376
1.754,333
1.762,353
1.77,335
1.778,353
1.786,358
1.794,397
1.802,306
1.81,313
1.818,335
1.826,294
1.834,335
1.842,314
1.85,314
1.858,304
1.866,288
1.874,296
1.882,329
1.89,346
1.898,1151
1.906,875
1.914,328
1.922,322
1.93,292
1.938,284
1.946,247
1.954,282
1.962,261
1.97,305
1.978,723
1.986,571
1.994,263
2.002,260
2.01,255
2.018,346
2.026,321
2.034,237
2.042,263
2.05,252
2.058,255
2.066,404
2.074,615
2.082,232
2.09,246
2.098,234
2.106,234
2.114,199
2.122,218
2.13,226
2.138,221
2.146,232
2.154,489
2.162,468
2.17,318
2.178,218
2.186,216
2.194,210
2.202,197
2.21,203
2.218,174
2.226,192
2.234,257
2.242,347
2.25,276
2.258,198
2.266,180
2.274,173
2.282,188
2.29,169
2.298,174
2.306,200
2.314,176
2.322,186
2.33,179
2.338,192
2.346,161
2.354,181
2.362,169
2.37,182
2.378,157
2.386,192
2.394,160
2.402,167
2.41,164
2.418,183
2.426,181
2.434,163
2.442,197
2.45,166
2.458,171
2.466,203
2.474,225
2.482,191
2.49,228
2.498,235
2.506,175
2.514,175
2.522,161
2.53,164

File: PID071_xrd.csv
0.45,391
0.458,347
0.466,278
0.474,295
0.482,289
0.49,357
0.498,398
0.506,301
0.514,252
0.522,247
0.53,247
0.538,286
0.546,251
0.554,271
0.562,215
0.57,277
0.578,289
0.586,500
0.594,1325
0.602,477
0.61,283
0.618,290
0.626,253
0.634,224
0.642,235
0.65,248
0.658,414
0.666,566
0.674,256
0.682,232
0.69,208
0.698,213
0.706,187
0.714,211
0.722,205
0.73,240
0.738,325
0.746,228
0.754,213
0.762,202
0.77,188
0.778,224
0.786,220
0.794,214
0.802,234
0.81,216
0.818,232
0.826,234
0.834,290
0.842,375
0.85,689
0.858,2708
0.866,3085
0.874,659
0.882,421
0.89,386
0.898,499
0.906,428
0.914,238
0.922,218
0.93,209
0.938,240
0.946,229
0.954,194
0.962,193
0.97,198
0.978,201
0.986,249
0.994,243
1.002,281
1.01,264
1.018,460
1.026,1602
1.034,1106
1.042,340
1.05,216
1.058,244
1.066,220
1.074,291
1.082,318
1.09,249
1.098,249
1.106,212
1.114,270
1.122,314
1.13,305
1.138,300
1.146,284
1.154,320
1.162,348
1.17,465
1.178,801
1.186,2376
1.194,2317
1.202,6112
1.21,3291
1.218,966
1.226,641
1.234,653
1.242,1014
1.25,3376
1.258,1412
1.266,527
1.274,360
1.282,400
1.29,468
1.298,449
1.306,626
1.314,442
1.322,390
1.33,606
1.338,1757
1.346,2100
1.354,637
1.362,476
1.37,646
1.378,1858
1.386,3567
1.394,1150
1.402,554
1.41,430
1.418,325
1.426,296
1.434,261
1.442,288
1.45,278
1.458,272
1.466,298
1.474,309
1.482,290
1.49,267
1.498,261
1.506,319
1.514,293
1.522,296
1.53,286
1.538,307
1.546,308
1.554,377
1.562,678
1.57,1930
1.578,1025
1.586,412
1.594,294
1.602,241
1.61,303
1.618,489
1.626,385
1.634,284
1.642,269
1.65,269
1.658,298
1.666,278
1.674,374
1.682,740
1.69,2014
1.698,1250
1.706,497
1.714,313
1.722,310
1.73,292
1.738,246
1.746,226
1.754,252
1.762,226
1.77,278
1.778,351
1.786,326
1.794,295
1.802,248
1.81,224
1.818,221
1.826,208
1.834,220
1.842,265
1.85,266
1.858,277
1.866,313
1.874,360
1.882,1021
1.89,1636
1.898,646
1.906,330
1.914,230
1.922,207
1.93,219
1.938,202
1.946,220
1.954,328
1.962,686
1.97,896
1.978,421
1.986,283
1.994,278
2.002,338
2.01,362
2.018,232
2.026,232
2.034,205
2.042,235
2.05,409
2.058,777
2.066,391
2.074,233
2.082,197
2.09,189
2.098,179
2.106,158
2.114,171
2.122,184
2.13,325
2.138,599
2.146,602
2.154,383
2.162,213
2.17,176
2.178,178
2.186,166
2.194,147
2.202,172
2.21,156
2.218,219
2.226,344
2.234,359
2.242,199
2.25,214
2.258,186
2.266,164
2.274,130
2.282,125
2.29,140
2.298,137
2.306,119
2.314,146
2.322,144
2.33,125
2.338,124
2.346,148
2.354,117
2.362,153
2.37,161
2.378,181
2.386,131
2.394,126
2.402,162
2.41,182
2.418,145
2.426,174
2.434,158
2.442,195
2.45,275
2.458,278
2.466,183
2.474,189
2.482,223
2.49,161
2.498,158
2.506,134
2.514,104
2.522,149
2.53,108

File: PID082_xrd.csv
0.45,414
0.458,427
0.466,375
0.474,394
0.482,389
0.49,384
0.498,340
0.506,385
0.514,327
0.522,335
0.53,297
0.538,334
0.546,306
0.554,312
0.562,348
0.57,355
0.578,321
0.586,365
0.594,380
0.602,639
0.61,3502
0.618,3134
0.626,650
0.634,370
0.642,318
0.65,301
0.658,293
0.666,337
0.674,299
0.682,263
0.69,278
0.698,228
0.706,253
0.714,266
0.722,240
0.73,235
0.738,251
0.746,280
0.754,258
0.762,233
0.77,221
0.778,248
0.786,224
0.794,232
0.802,254
0.81,219
0.818,212
0.826,266
0.834,250
0.842,274
0.85,316
0.858,419
0.866,698
0.874,3571
0.882,3118
0.89,587
0.898,305
0.906,242
0.914,249
0.922,228
0.93,230
0.938,241
0.946,229
0.954,222
0.962,222
0.97,216
0.978,206
0.986,196
0.994,216
1.002,218
1.01,212
1.018,223
1.026,222
1.034,234
1.042,208
1.05,262
1.058,353
1.066,486
1.074,288
1.082,233
1.09,248
1.098,226
1.106,234
1.114,248
1.122,234
1.13,256
1.138,284
1.146,258
1.154,270
1.162,275
1.17,288
1.178,312
1.186,367
1.194,383
1.202,428
1.21,533
1.218,842
1.226,2749
1.234,6867
1.242,2862
1.25,3714
1.258,4302
1.266,922
1.274,514
1.282,409
1.29,358
1.298,294
1.306,319
1.314,330
1.322,300
1.33,305
1.338,334
1.346,327
1.354,390
1.362,483
1.37,1076
1.378,3582
1.386,1662
1.394,1853
1.402,1201
1.41,515
1.418,376
1.426,338
1.434,324
1.442,284
1.45,288
1.458,323
1.466,289
1.474,291
1.482,310
1.49,313
1.498,311
1.506,289
1.514,301
1.522,280
1.53,283
1.538,273
1.546,308
1.554,340
1.562,308
1.57,293
1.578,321
1.586,308
1.594,372
1.602,388
1.61,551
1.618,1412
1.626,2704
1.634,997
1.642,883
1.65,614
1.658,416
1.666,345
1.674,308
1.682,286
1.69,300
1.698,286
1.706,298
1.714,358
1.722,341
1.73,586
1.738,1766
1.746,1520
1.754,561
1.762,356
1.77,322
1.778,263
1.786,259
1.794,260
1.802,264
1.81,232
1.818,223
1.826,254
1.834,253
1.842,291
1.85,241
1.858,257
1.866,215
1.874,231
1.882,210
1.89,270
1.898,249
1.906,271
1.914,278
1.922,294
1.93,406
1.938,887
1.946,1912
1.954,862
1.962,460
1.97,482
1.978,1173
1.986,666
1.994,336
2.002,214
2.01,207
2.018,197
2.026,200
2.034,198
2.042,262
2.05,463
2.058,384
2.066,221
2.074,188
2.082,173
2.09,165
2.098,160
2.106,166
2.114,222
2.122,345
2.13,367
2.138,239
2.146,227
2.154,258
2.162,315
2.17,231
2.178,187
2.186,163
2.194,185
2.202,244
2.21,448
2.218,418
2.226,270
2.234,188
2.242,213
2.25,178
2.258,151
2.266,145
2.274,153
2.282,194
2.29,198
2.298,450
2.306,349
2.314,227
2.322,164
2.33,145
2.338,153
2.346,155
2.354,122
2.362,148
2.37,124
2.378,133
2.386,129
2.394,146
2.402,136
2.41,133
2.418,129
2.426,132
2.434,142
2.442,156
2.45,183
2.458,213
2.466,293
2.474,259
2.482,211
2.49,178
2.498,158
2.506,152
2.514,145
2.522,132
2.53,209

File: PID085_xrd.csv
0.45,418
0.458,356
0.466,350
0.474,342
0.482,329
0.49,425
0.498,440
0.506,325
0.514,302
0.522,304
0.53,302
0.538,290
0.546,320
0.554,288
0.562,306
0.57,318
0.578,304
0.586,319
0.594,328
0.602,410
0.61,659
0.618,4157
0.626,1887
0.634,442
0.642,332
0.65,285
0.658,560
0.666,885
0.674,299
0.682,265
0.69,261
0.698,228
0.706,237
0.714,248
0.722,249
0.73,274
0.738,438
0.746,229
0.754,218
0.762,273
0.77,222
0.778,230
0.786,232
0.794,227
0.802,228
0.81,242
0.818,219
0.826,229
0.834,225
0.842,241
0.85,263
0.858,297
0.866,344
0.874,834
0.882,4031
0.89,1306
0.898,349
0.906,259
0.914,223
0.922,209
0.93,240
0.938,230
0.946,220
0.954,214
0.962,209
0.97,193
0.978,186
0.986,224
0.994,242
1.002,208
1.01,205
1.018,217
1.026,201
1.034,214
1.042,224
1.05,204
1.058,224
1.066,237
1.074,305
1.082,263
1.09,203
1.098,233
1.106,220
1.114,291
1.122,401
1.13,289
1.138,263
1.146,233
1.154,216
1.162,253
1.17,325
1.178,281
1.186,278
1.194,290
1.202,297
1.21,367
1.218,365
1.226,513
1.234,1133
1.242,4962
1.25,4783
1.258,4970
1.266,1004
1.274,498
1.282,428
1.29,515
1.298,562
1.306,794
1.314,378
1.322,311
1.33,292
1.338,291
1.346,280
1.354,305
1.362,348
1.37,384
1.378,628
1.386,1992
1.394,2782
1.402,1701
1.41,680
1.418,399
1.426,332
1.434,334
1.442,348
1.45,311
1.458,285
1.466,329
1.474,403
1.482,316
1.49,283
1.498,306
1.506,288
1.514,357
1.522,314
1.53,337
1.538,323
1.546,252
1.554,262
1.562,285
1.57,306
1.578,262
1.586,256
1.594,272
1.602,291
1.61,276
1.618,325
1.626,379
1.634,935
1.642,2154
1.65,1041
1.658,543
1.666,320
1.674,305
1.682,298
1.69,298
1.698,384
1.706,344
1.714,333
1.722,303
1.73,302
1.738,318
1.746,429
1.754,1535
1.762,1253
1.77,485
1.778,375
1.786,332
1.794,298
1.802,275
1.81,257
1.818,212
1.826,209
1.834,231
1.842,285
1.85,332
1.858,268
1.866,223
1.874,243
1.882,208
1.89,224
1.898,241
1.906,213
1.914,208
1.922,237
1.93,231
1.938,265
1.946,255
1.954,452
1.962,1483
1.97,1000
1.978,749
1.986,1006
1.994,437
2.002,323
2.01,229
2.018,223
2.026,228
2.034,169
2.042,182
2.05,201
2.058,218
2.066,409
2.074,297
2.082,195
2.09,179
2.098,189
2.106,150
2.114,147
2.122,181
2.13,189
2.138,172
2.146,294
2.154,232
2.162,234
2.17,281
2.178,198
2.186,183
2.194,145
2.202,164
2.21,161
2.218,158
2.226,222
2.234,426
2.242,342
2.25,202
2.258,168
2.266,151
2.274,132
2.282,152
2.29,137
2.298,151
2.306,141
2.314,245
2.322,486
2.33,314
2.338,169
2.346,141
2.354,154
2.362,129
2.37,147
2.378,127
2.386,145
2.394,118
2.402,123
2.41,129
2.418,123
2.426,127
2.434,111
2.442,123
2.45,142
2.458,144
2.466,143
2.474,169
2.482,248
2.49,335
2.498,230
2.506,163
2.514,153
2.522,142
2.53,123